##########################
#
# SN II 199ca spectrum
#
##########################
#
# Reference : Gutierrez et al. 2017, ApJ, 850, 89
# Telescope : NTT
# Instrument: EMMI
# JD        : 2451317.545
#
#  wavelength    flux
#   (angtrom)   
 3348.544    1.0435200e-16
 3351.197    1.5426200e-16
 3353.849    2.2061670e-16
 3356.502    1.4297200e-16
 3359.154    1.3732700e-16
 3361.807    1.3168200e-16
 3364.460    1.0020260e-16
 3367.112    1.0341305e-16
 3369.765    1.0501828e-16
 3372.417    1.0662350e-16
 3375.070    1.0802560e-16
 3377.723    1.0942770e-16
 3380.375    1.0837613e-16
 3383.028    1.0872665e-16
 3385.680    1.0907718e-16
 3388.333    8.8487820e-17
 3390.985    9.8096630e-17
 3393.638    1.2562290e-16
 3396.291    1.2703060e-16
 3398.943    1.3739970e-16
 3401.596    1.3285270e-16
 3404.248    1.1884980e-16
 3406.901    8.4260250e-17
 3409.553    8.6010570e-17
 3412.206    8.6885730e-17
 3414.859    6.2568910e-17
 3417.511    8.7760890e-17
 3420.164    8.4464525e-17
 3422.816    8.2043320e-17
 3425.469    8.1066000e-17
 3428.121    8.3253923e-17
 3430.774    8.1554660e-17
 3433.427    9.4150360e-17
 3436.079    8.2404291e-17
 3438.732    8.8277326e-17
 3441.384    1.0248708e-16
 3444.037    1.0315689e-16
 3446.689    1.0732525e-16
 3449.342    1.1082380e-16
 3451.995    1.0382670e-16
 3454.647    1.0907453e-16
 3457.300    1.0645061e-16
 3459.952    1.1120220e-16
 3462.605    9.1148330e-17
 3465.257    9.9998366e-17
 3467.910    1.0560028e-16
 3470.563    9.3546120e-17
 3473.215    1.1961380e-16
 3475.868    1.3316120e-16
 3478.520    9.6977130e-17
 3481.173    9.0956780e-17
 3483.826    1.3062330e-16
 3486.478    1.2667280e-16
 3489.131    1.1284580e-16
 3491.783    9.1674270e-17
 3494.436    9.2305040e-17
 3497.088    1.3932190e-16
 3499.741    1.2485260e-16
 3502.394    1.0662570e-16
 3505.046    1.0276180e-16
 3507.699    8.2051210e-17
 3510.351    1.0493820e-16
 3513.004    1.2459580e-16
 3515.656    1.2769750e-16
 3518.309    1.3312190e-16
 3520.962    1.2276680e-16
 3523.614    1.1507430e-16
 3526.267    1.1126020e-16
 3528.919    1.0982240e-16
 3531.572    1.3278420e-16
 3534.224    1.2739240e-16
 3536.877    1.0325800e-16
 3539.530    1.0299340e-16
 3542.182    1.3824360e-16
 3544.835    1.3908170e-16
 3547.487    1.1932160e-16
 3550.140    1.1791050e-16
 3552.792    1.3042420e-16
 3555.445    1.3743570e-16
 3558.098    1.3026280e-16
 3560.750    1.1454030e-16
 3563.403    1.0780650e-16
 3566.055    1.5113220e-16
 3568.708    1.5261820e-16
 3571.360    1.0154510e-16
 3574.013    1.0153960e-16
 3576.666    1.0855310e-16
 3579.318    1.2770840e-16
 3581.971    1.4637780e-16
 3584.623    1.3860290e-16
 3587.276    1.3820780e-16
 3589.929    1.4294360e-16
 3592.581    1.3910450e-16
 3595.234    1.2175870e-16
 3597.886    1.4102405e-16
 3600.539    1.2053300e-16
 3603.191    1.5875690e-16
 3605.844    1.6233885e-16
 3608.497    1.7658580e-16
 3611.149    1.6592080e-16
 3613.802    1.6637350e-16
 3616.454    1.5929500e-16
 3619.107    1.5457670e-16
 3621.759    1.3227110e-16
 3624.412    1.5271445e-16
 3627.065    1.4221210e-16
 3629.717    1.5224550e-16
 3632.370    1.5318340e-16
 3635.022    1.5442750e-16
 3637.675    1.5874190e-16
 3640.327    1.5744770e-16
 3642.980    1.5414380e-16
 3645.633    1.5630200e-16
 3648.285    1.6202560e-16
 3650.938    1.6015520e-16
 3653.590    1.5733000e-16
 3656.243    1.4534630e-16
 3658.895    1.3325830e-16
 3661.548    1.4098680e-16
 3664.201    1.4169500e-16
 3666.853    1.4158450e-16
 3669.506    1.4672620e-16
 3672.158    1.5023360e-16
 3674.811    1.4030100e-16
 3677.464    1.4131710e-16
 3680.116    1.5003400e-16
 3682.769    1.4482280e-16
 3685.421    1.3619510e-16
 3688.074    1.4123270e-16
 3690.726    1.4837320e-16
 3693.379    1.3929240e-16
 3696.032    1.2824020e-16
 3698.684    1.0981030e-16
 3701.337    1.0336380e-16
 3703.989    1.1866680e-16
 3706.642    1.2235220e-16
 3709.294    1.2246340e-16
 3711.947    1.3472240e-16
 3714.600    1.5611180e-16
 3717.252    1.5804740e-16
 3719.905    1.5301340e-16
 3722.557    1.5103380e-16
 3725.210    1.5214850e-16
 3727.862    1.5081740e-16
 3730.515    1.6485420e-16
 3733.168    1.7896460e-16
 3735.820    1.8355650e-16
 3738.473    1.9047270e-16
 3741.125    1.9864260e-16
 3743.778    1.9799750e-16
 3746.430    1.9421670e-16
 3749.083    1.9999800e-16
 3751.736    1.8668660e-16
 3754.388    1.8767630e-16
 3757.041    2.0220230e-16
 3759.693    1.9964610e-16
 3762.346    2.0162710e-16
 3764.998    2.0158700e-16
 3767.651    2.0333000e-16
 3770.304    2.1053790e-16
 3772.956    1.9852150e-16
 3775.609    1.9458700e-16
 3778.261    2.0138780e-16
 3780.914    2.0445170e-16
 3783.567    2.0571010e-16
 3786.219    2.1630750e-16
 3788.872    2.2065280e-16
 3791.524    2.1278360e-16
 3794.177    2.2662300e-16
 3796.829    2.3400610e-16
 3799.482    2.3270330e-16
 3802.135    2.3236350e-16
 3804.787    2.3403050e-16
 3807.440    2.4317750e-16
 3810.092    2.3981850e-16
 3812.745    2.2854480e-16
 3815.397    2.4509900e-16
 3818.050    2.5034460e-16
 3820.703    2.5447540e-16
 3823.355    2.5477710e-16
 3826.008    2.2763130e-16
 3828.660    2.1623250e-16
 3831.313    2.1733560e-16
 3833.965    2.1502930e-16
 3836.618    2.0461830e-16
 3839.271    1.9821810e-16
 3841.923    2.0633500e-16
 3844.576    2.1194500e-16
 3847.228    1.9822020e-16
 3849.881    2.0513460e-16
 3852.533    2.0310710e-16
 3855.186    1.8693200e-16
 3857.839    1.7963550e-16
 3860.491    1.9306810e-16
 3863.144    1.9492350e-16
 3865.796    1.8566820e-16
 3868.449    1.8219850e-16
 3871.101    1.7819970e-16
 3873.754    1.7972830e-16
 3876.407    1.7970110e-16
 3879.059    1.7731160e-16
 3881.712    1.9021130e-16
 3884.364    1.8899380e-16
 3887.017    1.8163840e-16
 3889.670    1.8351720e-16
 3892.322    1.8811240e-16
 3894.975    1.8326060e-16
 3897.627    1.8077360e-16
 3900.280    1.8502600e-16
 3902.932    1.8377250e-16
 3905.585    1.9915490e-16
 3908.238    1.9747120e-16
 3910.890    1.6532870e-16
 3913.543    1.9604485e-16
 3916.195    1.6976150e-16
 3918.848    1.9461850e-16
 3921.500    1.9873670e-16
 3924.153    2.2085970e-16
 3926.806    2.2650620e-16
 3929.458    2.2465300e-16
 3932.111    2.2464900e-16
 3934.763    2.2594000e-16
 3937.416    2.2756570e-16
 3940.068    2.3354140e-16
 3942.721    2.4357360e-16
 3945.374    2.5481580e-16
 3948.026    2.6756210e-16
 3950.679    2.8005020e-16
 3953.331    2.9101720e-16
 3955.984    2.9973750e-16
 3958.636    3.0549110e-16
 3961.289    3.0550470e-16
 3963.942    3.0027110e-16
 3966.594    2.9755660e-16
 3969.247    3.0928790e-16
 3971.899    3.1840690e-16
 3974.552    3.3981110e-16
 3977.204    3.7311390e-16
 3979.857    3.8473180e-16
 3982.510    3.9730120e-16
 3985.162    4.0790900e-16
 3987.815    4.1577250e-16
 3990.467    4.3151120e-16
 3993.120    4.4185210e-16
 3995.772    4.5478830e-16
 3998.425    4.6151650e-16
 4001.078    4.4462860e-16
 4003.730    4.4045080e-16
 4006.383    4.5242140e-16
 4009.035    4.6224590e-16
 4011.688    4.5644250e-16
 4014.341    4.5845760e-16
 4016.993    4.7240520e-16
 4019.646    4.8646720e-16
 4022.298    4.9168510e-16
 4024.951    5.0449580e-16
 4027.603    5.0463790e-16
 4030.256    5.0116810e-16
 4032.909    5.0994710e-16
 4035.561    5.1051000e-16
 4038.214    4.9976230e-16
 4040.866    4.8656830e-16
 4043.519    4.8103380e-16
 4046.171    4.8308760e-16
 4048.824    4.8405890e-16
 4051.477    4.7994860e-16
 4054.129    4.7139000e-16
 4056.782    4.6107490e-16
 4059.434    4.5452420e-16
 4062.087    4.5547990e-16
 4064.739    4.5646210e-16
 4067.392    4.4577070e-16
 4070.045    4.5440860e-16
 4072.697    4.6005480e-16
 4075.350    4.5304300e-16
 4078.002    4.5553710e-16
 4080.655    4.5307280e-16
 4083.307    4.5047720e-16
 4085.960    4.5317600e-16
 4088.613    4.5768570e-16
 4091.265    4.5452730e-16
 4093.918    4.3914280e-16
 4096.570    4.1964790e-16
 4099.223    4.0839280e-16
 4101.875    4.0380250e-16
 4104.528    4.0096450e-16
 4107.181    3.9444730e-16
 4109.833    3.8421540e-16
 4112.486    3.7940570e-16
 4115.138    3.8570570e-16
 4117.791    3.9621750e-16
 4120.444    4.0263640e-16
 4123.096    4.0934940e-16
 4125.749    4.0493480e-16
 4128.401    4.0516730e-16
 4131.054    4.2091290e-16
 4133.706    4.2982000e-16
 4136.359    4.3491630e-16
 4139.012    4.3962040e-16
 4141.664    4.4355380e-16
 4144.317    4.4285690e-16
 4146.969    4.3871270e-16
 4149.622    4.3936570e-16
 4152.274    4.4403750e-16
 4154.927    4.4123120e-16
 4157.580    4.3794580e-16
 4160.232    4.3498810e-16
 4162.885    4.3192160e-16
 4165.537    4.2850450e-16
 4168.190    4.1911590e-16
 4170.842    4.1538500e-16
 4173.495    4.1991180e-16
 4176.148    4.2232140e-16
 4178.800    4.1813200e-16
 4181.453    4.0170320e-16
 4184.105    3.8743720e-16
 4186.758    3.9219570e-16
 4189.410    3.9949480e-16
 4192.063    3.8976910e-16
 4194.716    3.7827920e-16
 4197.368    3.8529130e-16
 4200.021    3.8700760e-16
 4202.673    3.8864600e-16
 4205.326    3.8400370e-16
 4207.978    3.7056320e-16
 4210.631    3.6733450e-16
 4213.284    3.5527710e-16
 4215.936    3.4364770e-16
 4218.589    3.4126990e-16
 4221.241    3.2925770e-16
 4223.894    2.9427310e-16
 4226.547    2.7489000e-16
 4229.199    2.8280690e-16
 4231.852    2.7052160e-16
 4234.504    2.6218330e-16
 4237.157    2.5216590e-16
 4239.809    2.3991630e-16
 4242.462    2.4026670e-16
 4245.115    2.3736580e-16
 4247.767    2.2674510e-16
 4250.420    2.1713160e-16
 4253.072    2.1803330e-16
 4255.725    2.1314720e-16
 4258.377    2.1939680e-16
 4261.030    2.3115010e-16
 4263.683    2.2691690e-16
 4266.335    2.2520040e-16
 4268.988    2.2477940e-16
 4271.640    2.2587050e-16
 4274.293    2.3229500e-16
 4276.945    2.4418570e-16
 4279.598    2.5361860e-16
 4282.251    2.5561900e-16
 4284.903    2.5475150e-16
 4287.556    2.6492600e-16
 4290.208    2.6454630e-16
 4292.861    2.6714360e-16
 4295.513    2.8208420e-16
 4298.166    2.7378970e-16
 4300.819    2.7483380e-16
 4303.471    2.8003430e-16
 4306.124    2.7685410e-16
 4308.776    2.7728580e-16
 4311.429    2.8569380e-16
 4314.081    2.9334590e-16
 4316.734    2.9362280e-16
 4319.387    2.9137140e-16
 4322.039    2.9151420e-16
 4324.692    2.9138710e-16
 4327.344    2.8630430e-16
 4329.997    2.7720430e-16
 4332.650    2.7887950e-16
 4335.302    2.8723500e-16
 4337.955    2.9023540e-16
 4340.607    2.8325360e-16
 4343.260    2.8401850e-16
 4345.912    2.9251230e-16
 4348.565    3.0330390e-16
 4351.218    3.1045930e-16
 4353.870    3.0650770e-16
 4356.523    3.1508040e-16
 4359.175    3.2916100e-16
 4361.828    3.2854560e-16
 4364.480    3.2997730e-16
 4367.133    3.3050130e-16
 4369.786    3.3721000e-16
 4372.438    3.4996640e-16
 4375.091    3.4259520e-16
 4377.743    3.2925700e-16
 4380.396    3.2554430e-16
 4383.048    3.3221820e-16
 4385.701    3.3278370e-16
 4388.354    3.3761600e-16
 4391.006    3.3371740e-16
 4393.659    3.1729580e-16
 4396.311    3.1347240e-16
 4398.964    3.3392890e-16
 4401.616    3.4944940e-16
 4404.269    3.4584290e-16
 4406.922    3.4706040e-16
 4409.574    3.5448670e-16
 4412.227    3.6405180e-16
 4414.879    3.7393510e-16
 4417.532    3.8385250e-16
 4420.185    3.8052530e-16
 4422.837    3.7266280e-16
 4425.490    3.7066610e-16
 4428.142    3.7279460e-16
 4430.795    3.6184200e-16
 4433.447    3.4614000e-16
 4436.100    3.4511340e-16
 4438.753    3.6233770e-16
 4441.405    3.6028020e-16
 4444.058    3.5150140e-16
 4446.710    3.4561360e-16
 4449.363    3.4229700e-16
 4452.015    3.4318340e-16
 4454.668    3.4147920e-16
 4457.321    3.3719740e-16
 4459.973    3.3226010e-16
 4462.626    3.2265140e-16
 4465.278    3.2123370e-16
 4467.931    3.1484990e-16
 4470.583    2.9928820e-16
 4473.236    3.0309160e-16
 4475.889    3.0551860e-16
 4478.541    3.0191520e-16
 4481.194    2.9804180e-16
 4483.846    2.9766700e-16
 4486.499    2.9377680e-16
 4489.151    2.8801940e-16
 4491.804    2.8487230e-16
 4494.457    2.8495420e-16
 4497.109    2.7927450e-16
 4499.762    2.8542200e-16
 4502.414    2.9906400e-16
 4505.067    2.9563370e-16
 4507.719    2.9531370e-16
 4510.372    3.0225500e-16
 4513.025    3.1059690e-16
 4515.677    3.1489310e-16
 4518.330    3.2250040e-16
 4520.982    3.3235910e-16
 4523.635    3.4333480e-16
 4526.288    3.5655420e-16
 4528.940    3.7386820e-16
 4531.593    3.9523930e-16
 4534.245    4.1046680e-16
 4536.898    4.1750200e-16
 4539.550    4.4073230e-16
 4542.203    4.6002400e-16
 4544.856    4.7911480e-16
 4547.508    5.0194260e-16
 4550.161    5.0427550e-16
 4552.813    5.2175280e-16
 4555.466    5.5202950e-16
 4558.118    5.7055270e-16
 4560.771    5.6531460e-16
 4563.424    5.7840110e-16
 4566.076    5.9617360e-16
 4568.729    6.0657610e-16
 4571.381    6.2833320e-16
 4574.034    6.2067020e-16
 4576.686    6.1325280e-16
 4579.339    6.2668700e-16
 4581.992    6.3864620e-16
 4584.644    6.4499520e-16
 4587.297    6.4302060e-16
 4589.949    6.4366810e-16
 4592.602    6.6027380e-16
 4595.254    6.7571380e-16
 4597.907    6.8937130e-16
 4600.560    6.9535510e-16
 4603.212    6.9083290e-16
 4605.865    7.0268300e-16
 4608.517    7.0308910e-16
 4611.170    6.9961470e-16
 4613.822    7.2043140e-16
 4616.475    7.5305180e-16
 4619.128    7.6823310e-16
 4621.780    7.6880360e-16
 4624.433    7.7490660e-16
 4627.085    7.8884810e-16
 4629.738    8.0573000e-16
 4632.391    8.1731520e-16
 4635.043    8.1958600e-16
 4637.696    8.1698400e-16
 4640.348    8.1292970e-16
 4643.001    8.1530080e-16
 4645.653    8.2044070e-16
 4648.306    8.1302970e-16
 4650.959    8.3286800e-16
 4653.611    8.3446320e-16
 4656.264    8.1384350e-16
 4658.916    8.4049090e-16
 4661.569    8.4338650e-16
 4664.221    8.2644400e-16
 4666.874    8.2176610e-16
 4669.527    8.4096730e-16
 4672.179    8.4770220e-16
 4674.832    8.3731140e-16
 4677.484    8.2462310e-16
 4680.137    8.2122040e-16
 4682.789    8.0898510e-16
 4685.442    7.9755330e-16
 4688.095    7.7854810e-16
 4690.747    7.4337780e-16
 4693.400    7.3362590e-16
 4696.052    7.3096300e-16
 4698.705    7.2188930e-16
 4701.357    7.0747010e-16
 4704.010    6.8907710e-16
 4706.663    6.6629840e-16
 4709.315    6.4805920e-16
 4711.968    6.4255020e-16
 4714.620    6.4460860e-16
 4717.273    6.4438830e-16
 4719.925    6.3254320e-16
 4722.578    6.1509480e-16
 4725.231    6.1441600e-16
 4727.883    6.1056750e-16
 4730.536    6.0483810e-16
 4733.188    6.0703440e-16
 4735.841    6.1472820e-16
 4738.494    5.8486470e-16
 4741.146    5.6810510e-16
 4743.799    5.8095580e-16
 4746.451    5.6667330e-16
 4749.104    5.5863130e-16
 4751.756    5.4245600e-16
 4754.409    5.2502380e-16
 4757.062    5.3606330e-16
 4759.714    5.4130900e-16
 4762.367    5.3848940e-16
 4765.019    5.2246630e-16
 4767.672    4.9250270e-16
 4770.324    4.9053400e-16
 4772.977    5.0453870e-16
 4775.630    5.0006340e-16
 4778.282    4.6636670e-16
 4780.935    4.5540410e-16
 4783.587    4.5149980e-16
 4786.240    4.3934610e-16
 4788.892    4.2171220e-16
 4791.545    4.1388480e-16
 4794.198    3.9736620e-16
 4796.850    3.8448700e-16
 4799.503    3.8943060e-16
 4802.155    3.9179950e-16
 4804.808    4.0342670e-16
 4807.460    4.1659800e-16
 4810.113    4.2724100e-16
 4812.766    4.4984900e-16
 4815.418    4.5573420e-16
 4818.071    4.6041470e-16
 4820.723    4.7921870e-16
 4823.376    4.9881960e-16
 4826.028    5.2332200e-16
 4828.681    5.4583730e-16
 4831.334    5.6352450e-16
 4833.986    5.8240830e-16
 4836.639    6.0475870e-16
 4839.291    6.0995990e-16
 4841.944    6.0412000e-16
 4844.597    6.1493750e-16
 4847.249    6.2540960e-16
 4849.902    6.3959080e-16
 4852.554    6.4871160e-16
 4855.207    6.4257320e-16
 4857.859    6.4924670e-16
 4860.512    6.6570610e-16
 4863.165    6.8185050e-16
 4865.817    6.9247460e-16
 4868.470    7.0182780e-16
 4871.122    7.1765080e-16
 4873.775    7.4511960e-16
 4876.427    7.7698450e-16
 4879.080    7.9110800e-16
 4881.733    8.0716870e-16
 4884.385    8.2066290e-16
 4887.038    8.2750320e-16
 4889.690    8.5046880e-16
 4892.343    8.5770750e-16
 4894.995    8.7764960e-16
 4897.648    9.1970890e-16
 4900.301    9.2893760e-16
 4902.953    9.3386400e-16
 4905.606    9.3814630e-16
 4908.258    9.3637290e-16
 4910.911    9.3152860e-16
 4913.563    9.3639790e-16
 4916.216    9.4382570e-16
 4918.869    9.4664760e-16
 4921.521    9.4365630e-16
 4924.174    9.1830990e-16
 4926.826    8.9749490e-16
 4929.479    8.9116150e-16
 4932.131    8.7752380e-16
 4934.784    8.3742980e-16
 4937.437    8.0328870e-16
 4940.089    7.8729830e-16
 4942.742    7.7399900e-16
 4945.394    7.5861350e-16
 4948.047    7.5112700e-16
 4950.700    7.3275660e-16
 4953.352    6.9283720e-16
 4956.005    6.8439750e-16
 4958.657    6.7923240e-16
 4961.310    6.8245290e-16
 4963.962    7.0256130e-16
 4966.615    7.0157870e-16
 4969.268    7.0753970e-16
 4971.920    7.1122920e-16
 4974.573    7.0742670e-16
 4977.225    7.3056010e-16
 4979.878    7.5068280e-16
 4982.530    7.5308030e-16
 4985.183    7.5514550e-16
 4987.836    7.8760780e-16
 4990.488    7.9279580e-16
 4993.141    8.0146720e-16
 4995.793    8.3218490e-16
 4998.446    8.4588670e-16
 5001.098    8.4430840e-16
 5003.751    8.6600370e-16
 5006.404    8.7674180e-16
 5009.056    8.5688690e-16
 5011.709    8.5855020e-16
 5014.361    8.6931770e-16
 5017.014    8.7035820e-16
 5019.666    8.7228770e-16
 5022.319    8.7603320e-16
 5024.972    8.9357790e-16
 5027.624    9.0574930e-16
 5030.277    8.9390030e-16
 5032.929    8.9634600e-16
 5035.582    8.9050970e-16
 5038.234    8.7780290e-16
 5040.887    8.7533170e-16
 5043.540    8.8596080e-16
 5046.192    8.7715690e-16
 5048.845    8.4409080e-16
 5051.497    8.1601130e-16
 5054.150    7.8997930e-16
 5056.803    7.6033440e-16
 5059.455    7.4286430e-16
 5062.108    7.4351820e-16
 5064.760    7.1692200e-16
 5067.413    6.9960290e-16
 5070.065    6.9128880e-16
 5072.718    6.6756840e-16
 5075.371    6.4283070e-16
 5078.023    6.3164300e-16
 5080.676    6.1011130e-16
 5083.328    5.8549730e-16
 5085.981    5.8494700e-16
 5088.633    5.7049900e-16
 5091.286    5.4263860e-16
 5093.939    5.1980030e-16
 5096.591    5.0273370e-16
 5099.244    4.9502820e-16
 5101.896    4.8072390e-16
 5104.549    4.6280180e-16
 5107.201    4.7019770e-16
 5109.854    4.6800460e-16
 5112.507    4.4479760e-16
 5115.159    4.5416110e-16
 5117.812    4.6072770e-16
 5120.464    4.5071910e-16
 5123.117    4.4475390e-16
 5125.769    4.4729110e-16
 5128.422    4.6484610e-16
 5131.075    4.7444640e-16
 5133.727    4.7746370e-16
 5136.380    4.7906140e-16
 5139.032    4.7463500e-16
 5141.685    4.7550730e-16
 5144.337    4.8497050e-16
 5146.990    4.8238350e-16
 5149.643    5.0378200e-16
 5152.295    5.0527300e-16
 5154.948    4.9895700e-16
 5157.600    5.0882760e-16
 5160.253    5.1997240e-16
 5162.906    5.4009060e-16
 5165.558    5.5612530e-16
 5168.211    5.7831510e-16
 5170.863    6.0215370e-16
 5173.516    6.1306620e-16
 5176.168    6.0334030e-16
 5178.821    6.0050630e-16
 5181.474    6.2724270e-16
 5184.126    6.2274650e-16
 5186.779    6.3686590e-16
 5189.431    6.4533540e-16
 5192.084    6.5572740e-16
 5194.736    6.7324030e-16
 5197.389    6.4589690e-16
 5200.042    6.4654550e-16
 5202.694    6.8689590e-16
 5205.347    6.7722830e-16
 5207.999    6.9852560e-16
 5210.652    6.9019900e-16
 5213.304    7.0322190e-16
 5215.957    7.4294600e-16
 5218.610    7.5030290e-16
 5221.262    7.6151050e-16
 5223.915    7.4071880e-16
 5226.567    7.5179430e-16
 5229.220    7.6965860e-16
 5231.872    7.6671640e-16
 5234.525    7.6332660e-16
 5237.178    7.2551290e-16
 5239.830    7.2707730e-16
 5242.483    7.3386900e-16
 5245.135    7.0679500e-16
 5247.788    7.1862120e-16
 5250.440    7.1270810e-16
 5253.093    7.2660440e-16
 5255.746    7.0030400e-16
 5258.398    6.6770460e-16
 5261.051    6.9583810e-16
 5263.703    6.8487890e-16
 5266.356    6.6803370e-16
 5269.009    6.8111360e-16
 5271.661    6.8190370e-16
 5274.314    7.1206210e-16
 5276.966    7.3341360e-16
 5279.619    7.2882300e-16
 5282.271    7.3226365e-16
 5284.924    7.3283862e-16
 5287.577    7.4868270e-16
 5290.229    7.3111370e-16
 5292.882    7.3815770e-16
 5295.534    7.4661700e-16
 5298.187    7.5032380e-16
 5300.839    7.6572370e-16
 5303.492    7.7946590e-16
 5306.145    7.4942810e-16
 5308.797    7.5977890e-16
 5311.450    7.7093470e-16
 5314.102    7.8222120e-16
 5316.755    8.0197310e-16
 5319.407    7.9729950e-16
 5322.060    7.9262590e-16
 5324.713    8.1402400e-16
 5327.365    8.2412050e-16
 5330.018    8.1941850e-16
 5332.670    8.1446120e-16
 5335.323    8.2171795e-16
 5337.975    8.3498450e-16
 5340.628    8.2332070e-16
 5343.281    8.2011520e-16
 5345.933    8.2192310e-16
 5348.586    8.0802970e-16
 5351.238    7.9653310e-16
 5353.891    8.2512860e-16
 5356.543    8.5181330e-16
 5359.196    8.3374090e-16
 5361.849    8.2385970e-16
 5364.501    8.2574470e-16
 5367.154    8.5475320e-16
 5369.806    8.6142800e-16
 5372.459    8.7897920e-16
 5375.112    8.5780260e-16
 5377.764    8.9012720e-16
 5380.417    9.0127520e-16
 5383.069    9.2543160e-16
 5385.722    9.0158610e-16
 5388.374    9.1218170e-16
 5391.027    9.3774960e-16
 5393.680    9.4653500e-16
 5396.332    9.0354290e-16
 5398.985    9.1408920e-16
 5401.637    9.1721110e-16
 5404.290    9.1039390e-16
 5406.942    9.3588590e-16
 5409.595    9.1583340e-16
 5412.248    8.8675110e-16
 5414.900    8.7647810e-16
 5417.553    8.8847850e-16
 5420.205    8.8896380e-16
 5422.858    8.5261220e-16
 5425.510    8.7149670e-16
 5428.163    8.7016440e-16
 5430.816    8.6709830e-16
 5433.468    8.7390790e-16
 5436.121    8.3291540e-16
 5438.773    8.3366060e-16
 5441.426    8.3883060e-16
 5444.078    8.1479330e-16
 5446.731    8.0949100e-16
 5449.384    7.9265030e-16
 5452.036    7.8050620e-16
 5454.689    7.8222680e-16
 5457.341    7.7186690e-16
 5459.994    7.6818370e-16
 5462.646    7.8394740e-16
 5465.299    7.7943240e-16
 5467.952    7.6011050e-16
 5470.604    7.8895980e-16
 5473.257    7.9692290e-16
 5475.909    8.1685990e-16
 5478.562    8.3268710e-16
 5481.215    8.4970300e-16
 5483.867    8.4823550e-16
 5486.520    8.2821880e-16
 5489.172    8.5601850e-16
 5491.825    9.0850980e-16
 5494.477    9.2405910e-16
 5497.130    9.2485660e-16
 5499.783    8.9177320e-16
 5502.435    9.0084870e-16
 5505.088    9.2005990e-16
 5507.740    9.4823680e-16
 5510.393    9.6384160e-16
 5513.045    9.6925220e-16
 5515.698    9.6657750e-16
 5518.351    9.3948510e-16
 5521.003    9.5005130e-16
 5523.656    9.6324500e-16
 5526.308    9.4591390e-16
 5528.961    9.4717660e-16
 5531.613    9.4249585e-16
 5534.266    9.3720825e-16
 5536.919    9.3533870e-16
 5539.571    9.3907780e-16
 5542.224    9.1456960e-16
 5544.876    9.3438390e-16
 5547.529    9.4991960e-16
 5550.181    9.3245850e-16
 5552.834    9.0834240e-16
 5555.487    9.0656630e-16
 5558.139    9.0059150e-16
 5560.792    8.7418960e-16
 5563.444    8.4648020e-16
 5566.097    8.1352570e-16
 5568.749    8.1430020e-16
 5571.402    8.2070620e-16
 5574.055    8.0777300e-16
 5576.707    7.6475140e-16
 5579.360    7.6753220e-16
 5582.012    7.6233030e-16
 5584.665    7.3569310e-16
 5587.318    7.2416200e-16
 5589.970    7.3147580e-16
 5592.623    7.2886970e-16
 5595.275    6.9696750e-16
 5597.928    7.0476060e-16
 5600.580    7.4471830e-16
 5603.233    7.4091850e-16
 5605.886    7.3930440e-16
 5608.538    7.2488050e-16
 5611.191    7.3418360e-16
 5613.843    7.4690050e-16
 5616.496    7.4397345e-16
 5619.148    7.4104640e-16
 5621.801    7.8669010e-16
 5624.454    7.9669840e-16
 5627.106    8.0170255e-16
 5629.759    8.1159090e-16
 5632.411    8.0670670e-16
 5635.064    8.3590090e-16
 5637.716    8.5504190e-16
 5640.369    8.4323650e-16
 5643.022    8.3541280e-16
 5645.674    8.4959630e-16
 5648.327    8.7130820e-16
 5650.979    8.8054610e-16
 5653.632    8.6212370e-16
 5656.284    8.6611730e-16
 5658.937    8.7201230e-16
 5661.590    8.6766240e-16
 5664.242    8.7626260e-16
 5666.895    8.8187310e-16
 5669.547    9.0696520e-16
 5672.200    9.2021570e-16
 5674.852    9.0094150e-16
 5677.505    8.9853300e-16
 5680.158    9.0118290e-16
 5682.810    8.9502650e-16
 5685.463    8.8968640e-16
 5688.115    8.7926780e-16
 5690.768    8.8919270e-16
 5693.421    8.8961800e-16
 5696.073    8.9245530e-16
 5698.726    8.9270760e-16
 5701.378    8.8919550e-16
 5704.031    8.9768720e-16
 5706.683    8.8805010e-16
 5709.336    8.6913420e-16
 5711.989    8.6461830e-16
 5714.641    8.8047270e-16
 5717.294    8.9411580e-16
 5719.946    8.7910250e-16
 5722.599    8.6239090e-16
 5725.251    8.5948210e-16
 5727.904    8.6626750e-16
 5730.557    8.6556860e-16
 5733.209    8.4459500e-16
 5735.862    8.3363520e-16
 5738.514    8.3317660e-16
 5741.167    8.2641080e-16
 5743.819    8.1724290e-16
 5746.472    8.0568920e-16
 5749.125    7.8704730e-16
 5751.777    7.8744680e-16
 5754.430    7.7417050e-16
 5757.082    7.5208270e-16
 5759.735    7.5612430e-16
 5762.387    7.4979430e-16
 5765.040    7.4579980e-16
 5767.693    7.3153450e-16
 5770.345    7.1231400e-16
 5772.998    7.0681700e-16
 5775.650    6.9576660e-16
 5778.303    6.8694120e-16
 5780.955    6.7346360e-16
 5783.608    6.4335710e-16
 5786.261    6.4053680e-16
 5788.913    6.3847980e-16
 5791.566    6.2860810e-16
 5794.218    6.1673290e-16
 5796.871    5.9849920e-16
 5799.524    6.1026190e-16
 5802.176    6.1021450e-16
 5804.829    5.9858390e-16
 5807.481    5.9954880e-16
 5810.134    6.0338490e-16
 5812.786    6.1320210e-16
 5815.439    6.0117310e-16
 5818.092    6.0537210e-16
 5820.744    6.2612210e-16
 5823.397    6.3121170e-16
 5826.049    6.4558090e-16
 5828.702    6.4476320e-16
 5831.354    6.4519410e-16
 5834.007    6.5583670e-16
 5836.660    6.6433340e-16
 5839.312    6.8551100e-16
 5841.965    7.0813680e-16
 5844.617    7.1803180e-16
 5847.270    7.2963670e-16
 5849.922    7.4129740e-16
 5852.575    7.5658290e-16
 5855.228    7.5902780e-16
 5857.880    7.5783700e-16
 5860.533    7.6768730e-16
 5863.185    7.9434390e-16
 5865.838    7.9657700e-16
 5868.490    7.9398790e-16
 5871.143    8.1497580e-16
 5873.796    8.2900750e-16
 5876.448    8.1631253e-16
 5879.101    8.3458582e-16
 5881.753    8.3637780e-16
 5884.406    8.3841791e-16
 5887.058    8.4329640e-16
 5889.711    8.5684955e-16
 5892.364    8.5897216e-16
 5895.016    8.5898715e-16
 5897.669    8.7628960e-16
 5900.321    8.6865030e-16
 5902.974    8.7174505e-16
 5905.627    8.7673651e-16
 5908.279    8.7290413e-16
 5910.932    8.7990249e-16
 5913.584    8.7292438e-16
 5916.237    8.6430530e-16
 5918.889    8.7308980e-16
 5921.542    8.8243520e-16
 5924.195    8.7000000e-16
 5926.847    8.7453350e-16
 5929.500    8.8301330e-16
 5932.152    8.7934210e-16
 5934.805    8.6401530e-16
 5937.457    8.5184530e-16
 5940.110    8.4558548e-16
 5942.763    8.4344835e-16
 5945.415    8.4524141e-16
 5948.068    8.3479082e-16
 5950.720    8.3060420e-16
 5953.373    8.2906694e-16
 5956.025    8.3357894e-16
 5958.678    8.4337231e-16
 5961.331    8.4661554e-16
 5963.983    8.6009690e-16
 5966.636    8.6369290e-16
 5969.288    8.5250900e-16
 5971.941    8.5798290e-16
 5974.593    8.6495060e-16
 5977.246    8.5192910e-16
 5979.899    8.5506270e-16
 5982.551    8.6459730e-16
 5985.204    8.6228850e-16
 5987.856    8.4538270e-16
 5990.509    8.5362190e-16
 5993.161    8.5187280e-16
 5995.814    8.3732260e-16
 5998.467    8.3667730e-16
 6001.119    8.5645640e-16
 6003.772    8.3786390e-16
 6006.424    8.2416510e-16
 6009.077    8.2067080e-16
 6011.730    8.1405470e-16
 6014.382    8.1678950e-16
 6017.035    8.2468350e-16
 6019.687    8.1493080e-16
 6022.340    8.1283890e-16
 6024.992    8.1813190e-16
 6027.645    8.0797990e-16
 6030.298    8.0824890e-16
 6032.950    8.1369940e-16
 6035.603    8.1116420e-16
 6038.255    7.9956600e-16
 6040.908    8.0474080e-16
 6043.560    8.1254390e-16
 6046.213    8.1259120e-16
 6048.866    7.9382010e-16
 6051.518    7.9174140e-16
 6054.171    7.8309240e-16
 6056.823    7.8010030e-16
 6059.476    7.8348630e-16
 6062.128    7.8604160e-16
 6064.781    7.9112560e-16
 6067.434    7.8225100e-16
 6070.086    7.7202630e-16
 6072.739    7.6666370e-16
 6075.391    7.6291530e-16
 6078.044    7.5719480e-16
 6080.696    7.5197020e-16
 6083.349    7.4031740e-16
 6086.002    7.4478530e-16
 6088.654    7.5826090e-16
 6091.307    7.6893030e-16
 6093.959    7.8232530e-16
 6096.612    7.8565220e-16
 6099.264    7.8179500e-16
 6101.917    7.7875370e-16
 6104.570    7.8071830e-16
 6107.222    7.8638450e-16
 6109.875    7.9086650e-16
 6112.527    7.8424500e-16
 6115.180    7.8980910e-16
 6117.833    7.9137440e-16
 6120.485    8.0144650e-16
 6123.138    8.0834270e-16
 6125.790    7.8946020e-16
 6128.443    7.9612090e-16
 6131.095    7.9364090e-16
 6133.748    7.9625810e-16
 6136.401    7.8663220e-16
 6139.053    7.7181400e-16
 6141.706    7.7176400e-16
 6144.358    7.6005850e-16
 6147.011    7.5552200e-16
 6149.663    7.5675070e-16
 6152.316    7.3870530e-16
 6154.969    7.3442080e-16
 6157.621    7.1683610e-16
 6160.274    7.1610480e-16
 6162.926    7.2088030e-16
 6165.579    7.0263460e-16
 6168.231    7.0586990e-16
 6170.884    7.0010930e-16
 6173.537    6.8924180e-16
 6176.189    6.9121650e-16
 6178.842    6.8787210e-16
 6181.494    7.0103610e-16
 6184.147    7.1238710e-16
 6186.799    7.1005210e-16
 6189.452    6.9521410e-16
 6192.105    7.2034750e-16
 6194.757    7.2410830e-16
 6197.410    7.2909710e-16
 6200.062    7.1942450e-16
 6202.715    7.1412970e-16
 6205.367    7.3513600e-16
 6208.020    7.5273550e-16
 6210.673    7.5258270e-16
 6213.325    7.7575190e-16
 6215.978    7.8221180e-16
 6218.630    7.7098930e-16
 6221.283    7.7011260e-16
 6223.936    7.6388050e-16
 6226.588    7.8027910e-16
 6229.241    7.7728560e-16
 6231.893    7.7414740e-16
 6234.546    7.8750060e-16
 6237.198    7.8565270e-16
 6239.851    7.8886080e-16
 6242.504    7.8322380e-16
 6245.156    7.9227390e-16
 6247.809    7.9480760e-16
 6250.461    8.0346320e-16
 6253.114    7.9537830e-16
 6255.766    7.8691340e-16
 6258.419    7.8992630e-16
 6261.072    8.0825680e-16
 6263.724    7.8739980e-16
 6266.377    7.6439480e-16
 6269.029    7.7625090e-16
 6271.682    7.6447620e-16
 6274.334    7.4933980e-16
 6276.987    7.4532960e-16
 6279.640    7.2908140e-16
 6282.292    7.2980200e-16
 6284.945    7.1736190e-16
 6287.597    7.2641370e-16
 6290.250    7.3031590e-16
 6292.902    7.2488570e-16
 6295.555    7.2279610e-16
 6298.208    7.2541440e-16
 6300.860    7.2492930e-16
 6303.513    7.4443350e-16
 6306.165    7.4299060e-16
 6308.818    7.2717290e-16
 6311.470    7.2685260e-16
 6314.123    7.1686500e-16
 6316.776    7.0882150e-16
 6319.428    7.2989620e-16
 6322.081    7.2945000e-16
 6324.733    7.1828450e-16
 6327.386    7.1295930e-16
 6330.039    7.0916950e-16
 6332.691    7.1387250e-16
 6335.344    7.2047930e-16
 6337.996    7.2216230e-16
 6340.649    7.2190360e-16
 6343.301    7.3001490e-16
 6345.954    7.2011510e-16
 6348.607    7.1474250e-16
 6351.259    7.0455250e-16
 6353.912    6.9076880e-16
 6356.564    7.0270050e-16
 6359.217    6.9876900e-16
 6361.869    7.1128680e-16
 6364.522    7.0963100e-16
 6367.175    6.9259310e-16
 6369.827    6.9812380e-16
 6372.480    6.9448490e-16
 6375.132    6.7520880e-16
 6377.785    6.7678480e-16
 6380.437    6.8395390e-16
 6383.090    6.8139030e-16
 6385.743    6.5629390e-16
 6388.395    6.8261600e-16
 6391.048    6.7201910e-16
 6393.700    6.4453020e-16
 6396.353    6.5001080e-16
 6399.005    6.6908840e-16
 6401.658    6.5639850e-16
 6404.311    6.5553120e-16
 6406.963    6.3983890e-16
 6409.616    6.4785130e-16
 6412.268    6.3922750e-16
 6414.921    6.1502260e-16
 6417.573    6.2726280e-16
 6420.226    6.2330790e-16
 6422.879    6.2532700e-16
 6425.531    6.1693670e-16
 6428.184    6.0227910e-16
 6430.836    5.9535300e-16
 6433.489    5.7626200e-16
 6436.142    5.7780570e-16
 6438.794    5.6902510e-16
 6441.447    5.7618090e-16
 6444.099    5.7278640e-16
 6446.752    5.4999370e-16
 6449.404    5.4083880e-16
 6452.057    5.2272980e-16
 6454.710    5.3455140e-16
 6457.362    5.2521540e-16
 6460.015    5.0645490e-16
 6462.667    5.0016670e-16
 6465.320    4.9795570e-16
 6467.972    5.0691980e-16
 6470.625    5.2081910e-16
 6473.278    5.5462790e-16
 6475.930    5.5198630e-16
 6478.583    5.5583220e-16
 6481.235    5.9283750e-16
 6483.888    6.2150530e-16
 6486.540    6.4655230e-16
 6489.193    6.6072010e-16
 6491.846    7.2031350e-16
 6494.498    7.5184690e-16
 6497.151    7.7512130e-16
 6499.803    7.9501450e-16
 6502.456    8.3304540e-16
 6505.108    8.6137210e-16
 6507.761    9.0095430e-16
 6510.414    9.3241340e-16
 6513.066    9.7613710e-16
 6515.719    1.0096820e-15
 6518.371    1.0345760e-15
 6521.024    1.0775740e-15
 6523.676    1.1061650e-15
 6526.329    1.1277410e-15
 6528.982    1.1379450e-15
 6531.634    1.1782690e-15
 6534.287    1.1942040e-15
 6536.939    1.2540560e-15
 6539.592    1.2700860e-15
 6542.245    1.2967620e-15
 6544.897    1.3133580e-15
 6547.550    1.3583270e-15
 6550.202    1.3858150e-15
 6552.855    1.4297790e-15
 6555.507    1.4212750e-15
 6558.160    1.4445050e-15
 6560.813    1.4787960e-15
 6563.465    1.4814170e-15
 6566.118    1.4817930e-15
 6568.770    1.4902940e-15
 6571.423    1.5106400e-15
 6574.075    1.5472100e-15
 6576.728    1.5482180e-15
 6579.381    1.5309850e-15
 6582.033    1.5577030e-15
 6584.686    1.5415240e-15
 6587.338    1.5167440e-15
 6589.991    1.5055540e-15
 6592.643    1.5278755e-15
 6595.296    1.5390070e-15
 6597.949    1.5414460e-15
 6600.601    1.4977620e-15
 6603.254    1.5355270e-15
 6605.906    1.5265440e-15
 6608.559    1.4957770e-15
 6611.211    1.4865020e-15
 6613.864    1.4619620e-15
 6616.517    1.4939650e-15
 6619.169    1.4600110e-15
 6621.822    1.4580600e-15
 6624.474    1.4561175e-15
 6627.127    1.4270620e-15
 6629.779    1.4486390e-15
 6632.432    1.4246630e-15
 6635.085    1.4222640e-15
 6637.737    1.3761190e-15
 6640.390    1.3640320e-15
 6643.042    1.3633390e-15
 6645.695    1.3540570e-15
 6648.348    1.3476080e-15
 6651.000    1.3135070e-15
 6653.653    1.3062340e-15
 6656.305    1.3186190e-15
 6658.958    1.3042660e-15
 6661.610    1.2818550e-15
 6664.263    1.2681330e-15
 6666.916    1.2872130e-15
 6669.568    1.2851950e-15
 6672.221    1.2535600e-15
 6674.873    1.2432350e-15
 6677.526    1.2107220e-15
 6680.178    1.2214640e-15
 6682.831    1.1929110e-15
 6685.484    1.1767850e-15
 6688.136    1.1513180e-15
 6690.789    1.1531440e-15
 6693.441    1.1347770e-15
 6696.094    1.1355650e-15
 6698.746    1.1409370e-15
 6701.399    1.1254190e-15
 6704.052    1.1061650e-15
 6706.704    1.0822660e-15
 6709.357    1.0689670e-15
 6712.009    1.0613070e-15
 6714.662    1.0760940e-15
 6717.314    1.0528310e-15
 6719.967    1.0255910e-15
 6722.620    1.0312450e-15
 6725.272    1.0196400e-15
 6727.925    9.9957630e-16
 6730.577    9.7921580e-16
 6733.230    9.5226570e-16
 6735.882    9.6156860e-16
 6738.535    9.5955940e-16
 6741.188    9.4398430e-16
 6743.840    9.1532520e-16
 6746.493    9.0979880e-16
 6749.145    9.2012740e-16
 6751.798    9.1094070e-16
 6754.451    8.8925180e-16
 6757.103    8.8944590e-16
 6759.756    9.0298640e-16
 6762.408    8.8240050e-16
 6765.061    8.5283870e-16
 6767.713    8.6578260e-16
 6770.366    8.6503320e-16
 6773.019    8.4963010e-16
 6775.671    8.4045090e-16
 6778.324    8.1733480e-16
 6780.976    8.1393680e-16
 6783.629    8.4418500e-16
 6786.281    8.2804830e-16
 6788.934    8.1106310e-16
 6791.587    8.2456710e-16
 6794.239    8.0680680e-16
 6796.892    8.2677140e-16
 6799.544    8.2891990e-16
 6802.197    8.0888660e-16
 6804.849    7.8459790e-16
 6807.502    7.8673610e-16
 6810.155    7.9914470e-16
 6812.807    8.0120520e-16
 6815.460    7.9139210e-16
 6818.112    7.8755360e-16
 6820.765    7.7467590e-16
 6823.417    8.0034020e-16
 6826.070    7.7030690e-16
 6828.723    7.6835380e-16
 6831.375    7.8059800e-16
 6834.028    7.5352100e-16
 6836.680    7.6622940e-16
 6839.333    7.7467340e-16
 6841.985    7.7502940e-16
 6844.638    7.5281840e-16
 6847.291    7.6676740e-16
 6849.943    7.4730460e-16
 6852.596    7.3007357e-16
 6855.248    7.2301708e-16
 6857.901    7.1675483e-16
 6860.554    7.1475092e-16
 6863.206    7.3468918e-16
 6865.859    7.2383863e-16
 6868.511    7.0719849e-16
 6871.164    6.9604628e-16
 6873.816    6.9204213e-16
 6876.469    7.1820496e-16
 6879.122    6.8333384e-16
 6881.774    6.9280949e-16
 6884.427    6.9475825e-16
 6887.079    6.7657202e-16
 6889.732    6.6941436e-16
 6892.384    6.6892531e-16
 6895.037    6.6653907e-16
 6897.690    6.5835116e-16
 6900.342    6.8968865e-16
 6902.995    6.5281027e-16
 6905.647    6.5603878e-16
 6908.300    6.5472756e-16
 6910.952    6.7296392e-16
 6913.605    6.4807028e-16
 6916.258    6.8083657e-16
 6918.910    6.4797211e-16
 6921.563    6.5527426e-16
 6924.215    6.5101753e-16
 6926.868    6.5543253e-16
 6929.520    6.6294401e-16
 6932.173    6.2850223e-16
 6934.826    6.4603722e-16
 6937.478    6.1742423e-16
 6940.131    6.1225190e-16
 6942.783    6.0539870e-16
 6945.436    6.1364680e-16
 6948.088    6.3330200e-16
 6950.741    6.3485180e-16
 6953.394    6.4371200e-16
 6956.046    6.3731280e-16
 6958.699    6.3540890e-16
 6961.351    6.3342560e-16
 6964.004    6.5220350e-16
 6966.657    6.6864700e-16
 6969.309    6.5644480e-16
 6971.962    6.4175440e-16
 6974.614    6.4946740e-16
 6977.267    6.7257790e-16
 6979.919    6.8519180e-16
 6982.572    6.6481250e-16
 6985.225    6.4977010e-16
 6987.877    6.7038430e-16
 6990.530    6.7241370e-16
 6993.182    6.6243510e-16
 6995.835    6.7677140e-16
 6998.487    6.7137170e-16
 7001.140    6.4821390e-16
 7003.793    6.7333770e-16
 7006.445    6.7765960e-16
 7009.098    6.7369320e-16
 7011.750    6.7492980e-16
 7014.403    6.6697020e-16
 7017.055    6.6424270e-16
 7019.708    6.7297470e-16
 7022.361    6.9274370e-16
 7025.013    6.9295740e-16
 7027.666    6.7930850e-16
 7030.318    6.9528000e-16
 7032.971    6.8137470e-16
 7035.623    6.7174060e-16
 7038.276    6.7074250e-16
 7040.929    6.6860490e-16
 7043.581    6.6364790e-16
 7046.234    6.6151140e-16
 7048.886    6.7220850e-16
 7051.539    6.7765400e-16
 7054.191    6.8959180e-16
 7056.844    6.9925400e-16
 7059.497    6.7939480e-16
 7062.149    6.6800830e-16
 7064.802    6.7484260e-16
 7067.454    6.8320220e-16
 7070.107    6.9188530e-16
 7072.760    6.7853860e-16
 7075.412    6.5613920e-16
 7078.065    6.7553950e-16
 7080.717    6.5860680e-16
 7083.370    6.4665710e-16
 7086.022    6.7652550e-16
 7088.675    6.6669030e-16
 7091.328    6.4740730e-16
 7093.980    6.6076260e-16
 7096.633    6.6313220e-16
 7099.285    6.5207890e-16
 7101.938    6.5976650e-16
 7104.590    6.6316700e-16
 7107.243    6.3220050e-16
 7109.896    6.2453740e-16
 7112.548    6.4178300e-16
 7115.201    6.2982240e-16
 7117.853    6.0276200e-16
 7120.506    6.1527390e-16
 7123.158    6.2958690e-16
 7125.811    6.0514040e-16
 7128.464    5.8084310e-16
 7131.116    6.0163610e-16
 7133.769    6.0298220e-16
 7136.421    5.8866190e-16
 7139.074    6.0826380e-16
 7141.726    6.0199670e-16
 7144.379    6.0295890e-16
 7147.032    6.1634290e-16
 7149.684    6.0543260e-16
 7152.337    6.1409680e-16
 7154.989    6.4207730e-16
 7157.642    6.2980100e-16
 7160.294    6.2884760e-16
 7162.947    6.2507950e-16
 7165.600    6.1155160e-16
 7168.252    6.4613930e-16
 7170.905    6.4935750e-16
 7173.557    6.3791640e-16
 7176.210    6.3452480e-16
 7178.863    6.2131350e-16
 7181.515    6.3272880e-16
 7184.168    6.3961730e-16
 7186.820    6.2309770e-16
 7189.473    6.2658230e-16
 7192.125    6.2677280e-16
 7194.778    6.2042950e-16
 7197.431    6.4200530e-16
 7200.083    6.5763490e-16
 7202.736    6.3205470e-16
 7205.388    6.0671520e-16
 7208.041    6.1391310e-16
 7210.693    6.5444240e-16
 7213.346    6.5111570e-16
 7215.999    6.3545810e-16
 7218.651    6.6040710e-16
 7221.304    6.4560320e-16
 7223.956    6.2897280e-16
 7226.609    6.3485240e-16
 7229.261    6.2074540e-16
 7231.914    6.0881020e-16
 7234.567    6.0034930e-16
 7237.219    6.0549320e-16
 7239.872    6.1526240e-16
 7242.524    6.1699120e-16
 7245.177    6.1823280e-16
 7247.829    6.0817020e-16
 7250.482    5.9742770e-16
 7253.135    5.9299020e-16
 7255.787    5.9003360e-16
 7258.440    6.1186080e-16
 7261.092    6.1963330e-16
 7263.745    6.0300600e-16
 7266.397    5.9298540e-16
 7269.050    5.9673900e-16
 7271.703    6.0768630e-16
 7274.355    5.9527630e-16
 7277.008    5.9680740e-16
 7279.660    6.2471630e-16
 7282.313    6.2458660e-16
 7284.966    6.1705330e-16
 7287.618    6.1943310e-16
 7290.271    6.3084120e-16
 7292.923    6.3628220e-16
 7295.576    6.3214770e-16
 7298.228    6.0980080e-16
 7300.881    6.2013730e-16
 7303.534    6.4901320e-16
 7306.186    6.5295130e-16
 7308.839    6.4606160e-16
 7311.491    6.3131260e-16
 7314.144    6.4707170e-16
 7316.796    6.4602480e-16
 7319.449    6.4134980e-16
 7322.102    6.7251930e-16
 7324.754    6.8578610e-16
 7327.407    6.7247030e-16
 7330.059    6.6454180e-16
 7332.712    6.3720760e-16
 7335.364    6.3213490e-16
 7338.017    6.5405270e-16
 7340.670    6.7613730e-16
 7343.322    6.5267060e-16
 7345.975    6.3087650e-16
 7348.627    6.3428760e-16
 7351.280    6.1980940e-16
 7353.932    6.3466530e-16
 7356.585    6.5389750e-16
 7359.238    6.3005250e-16
 7361.890    6.0783330e-16
 7364.543    6.1604800e-16
 7367.195    6.2783800e-16
 7369.848    6.0988870e-16
 7372.500    6.1425230e-16
 7375.153    6.1403980e-16
 7377.806    6.1455370e-16
 7380.458    6.1943840e-16
 7383.111    6.2763310e-16
 7385.763    6.3924180e-16
 7388.416    6.0953460e-16
 7391.069    6.0963740e-16
 7393.721    6.2046780e-16
 7396.374    6.3552410e-16
 7399.026    6.3587450e-16
 7401.679    6.3285590e-16
 7404.331    6.1963740e-16
 7406.984    6.2172240e-16
 7409.637    6.3238680e-16
 7412.289    6.3927780e-16
 7414.942    6.4760350e-16
 7417.594    6.4401990e-16
 7420.247    6.2682060e-16
 7422.899    6.4177460e-16
 7425.552    6.5484020e-16
 7428.205    6.5153400e-16
 7430.857    6.1090860e-16
 7433.510    6.3838340e-16
 7436.162    6.4768520e-16
 7438.815    6.3631850e-16
 7441.467    6.2106510e-16
 7444.120    6.3406500e-16
 7446.773    6.2601960e-16
 7449.425    6.4211670e-16
 7452.078    6.4689980e-16
 7454.730    6.0656720e-16
 7457.383    6.1554610e-16
 7460.035    6.1617130e-16
 7462.688    6.1455870e-16
 7465.341    6.1856480e-16
 7467.993    6.1242570e-16
 7470.646    6.3190030e-16
 7473.298    6.3111550e-16
 7475.951    6.3955620e-16
 7478.603    6.2651120e-16
 7481.256    6.2913410e-16
 7483.909    6.0192980e-16
 7486.561    6.3067300e-16
 7489.214    6.1446270e-16
 7491.866    6.0247150e-16
 7494.519    5.9408730e-16
 7497.172    6.1119505e-16
 7499.824    6.1703110e-16
 7502.477    6.1852290e-16
 7505.129    6.0792740e-16
 7507.782    6.3269200e-16
 7510.434    6.2777120e-16
 7513.087    6.0910270e-16
 7515.740    6.1704650e-16
 7518.392    6.2702020e-16
 7521.045    6.3515310e-16
 7523.697    6.2116550e-16
 7526.350    6.2116200e-16
 7529.002    6.1656420e-16
 7531.655    6.1427520e-16
 7534.308    6.1300160e-16
 7536.960    6.2648890e-16
 7539.613    6.2060460e-16
 7542.265    6.1997290e-16
 7544.918    6.1210750e-16
 7547.570    6.1058340e-16
 7550.223    6.0488750e-16
 7552.876    5.9187920e-16
 7555.528    5.8375840e-16
 7558.181    5.8377890e-16
 7560.833    5.8960840e-16
 7563.486    5.9982040e-16
 7566.138    5.6411600e-16
 7568.791    5.7069870e-16
 7571.444    5.7799650e-16
 7574.096    5.6760670e-16
 7576.749    5.8133780e-16
 7579.401    5.7280160e-16
 7582.054    5.8020072e-16
 7584.706    5.2623339e-16
 7587.359    5.2859875e-16
 7590.012    5.0368096e-16
 7592.664    5.1869821e-16
 7595.317    5.2549757e-16
 7597.969    4.9077268e-16
 7600.622    5.0037512e-16
 7603.275    4.8713382e-16
 7605.927    4.8988248e-16
 7608.580    4.7111381e-16
 7611.232    4.7732769e-16
 7613.885    4.6336598e-16
 7616.537    4.4602897e-16
 7619.190    4.6028182e-16
 7621.843    4.5343391e-16
 7624.495    4.3194496e-16
 7627.148    4.4144412e-16
 7629.800    4.3712945e-16
 7632.453    4.2636013e-16
 7635.105    4.2326502e-16
 7637.758    4.2064591e-16
 7640.411    4.1062438e-16
 7643.063    4.2764219e-16
 7645.716    4.1150872e-16
 7648.368    3.9567897e-16
 7651.021    4.1292120e-16
 7653.673    3.9488475e-16
 7656.326    3.9352932e-16
 7658.979    3.9783569e-16
 7661.631    3.6925264e-16
 7664.284    4.0461469e-16
 7666.936    3.9032547e-16
 7669.589    3.9033841e-16
 7672.241    3.9592221e-16
 7674.894    3.7539690e-16
 7677.547    3.7670178e-16
 7680.199    3.7058590e-16
 7682.852    3.8452620e-16
 7685.504    4.0301780e-16
 7688.157    3.9112460e-16
 7690.809    3.8346070e-16
 7693.462    4.1467790e-16
 7696.115    4.2506750e-16
 7698.767    4.2888710e-16
 7701.420    4.5095810e-16
 7704.072    4.2425920e-16
 7706.725    4.4288420e-16
 7709.378    4.6450990e-16
 7712.030    4.8345400e-16
 7714.683    4.6723500e-16
 7717.335    4.6784290e-16
 7719.988    5.0255540e-16
 7722.640    4.9218460e-16
 7725.293    5.1230470e-16
 7727.946    5.3988710e-16
 7730.598    5.5920780e-16
 7733.251    5.4825370e-16
 7735.903    5.3401340e-16
 7738.556    5.4441900e-16
 7741.208    5.6533650e-16
 7743.861    5.8229710e-16
 7746.514    5.7182520e-16
 7749.166    5.7345440e-16
 7751.819    5.6878980e-16
 7754.471    5.8854960e-16
 7757.124    5.8069210e-16
 7759.776    6.0689170e-16
 7762.429    6.1749160e-16
 7765.082    6.1079380e-16
 7767.734    5.8153030e-16
 7770.387    6.0340690e-16
 7773.039    6.3143090e-16
 7775.692    5.9570770e-16
 7778.344    5.8631020e-16
 7780.997    5.8170580e-16
 7783.650    6.1447580e-16
 7786.302    6.0627260e-16
 7788.955    5.9145280e-16
 7791.607    6.1161530e-16
 7794.260    6.2675800e-16
 7796.912    6.2187080e-16
 7799.565    6.1207010e-16
 7802.218    5.8907160e-16
 7804.870    6.0529690e-16
 7807.523    6.1491090e-16
 7810.175    5.9765500e-16
 7812.828    5.9584720e-16
 7815.481    5.9017770e-16
 7818.133    5.8965180e-16
 7820.786    5.9364190e-16
 7823.438    5.7179130e-16
 7826.091    5.8264840e-16
 7828.743    5.8857910e-16
 7831.396    5.8516390e-16
 7834.049    5.7224790e-16
 7836.701    5.9168810e-16
 7839.354    5.8855660e-16
 7842.006    5.6938970e-16
 7844.659    5.7025050e-16
 7847.311    5.8543650e-16
 7849.964    5.9710050e-16
 7852.617    5.7960180e-16
 7855.269    5.4808900e-16
 7857.922    6.0770500e-16
 7860.574    5.7908290e-16
 7863.227    5.7284160e-16
 7865.879    5.7404520e-16
 7868.532    5.5597320e-16
 7871.185    5.4377950e-16
 7873.837    5.7273110e-16
 7876.490    5.7404800e-16
 7879.142    5.8335060e-16
 7881.795    5.9708670e-16
 7884.447    5.8869520e-16
 7887.100    5.5849340e-16
 7889.753    5.8936470e-16
 7892.405    5.6081410e-16
 7895.058    5.6871130e-16
 7897.710    5.7051120e-16
 7900.363    5.7165620e-16
 7903.015    5.7984210e-16
 7905.668    5.9916090e-16
 7908.321    5.9999050e-16
 7910.973    5.6779700e-16
 7913.626    5.6521440e-16
 7916.278    5.8634900e-16
 7918.931    5.6017990e-16
 7921.584    5.6917460e-16
 7924.236    5.8845220e-16
 7926.889    5.8447250e-16
 7929.541    5.6758800e-16
 7932.194    5.7789390e-16
 7934.846    5.4449880e-16
 7937.499    5.5475320e-16
 7940.152    5.8137220e-16
 7942.804    5.5485600e-16
 7945.457    5.4022560e-16
 7948.109    5.7243410e-16
 7950.762    5.5351310e-16
 7953.414    5.4165890e-16
 7956.067    5.3511670e-16
 7958.720    5.4593470e-16
 7961.372    5.3946550e-16
 7964.025    5.4652060e-16
 7966.677    5.5521670e-16
 7969.330    5.6391280e-16
 7971.982    5.6463710e-16
 7974.635    5.7312730e-16
 7977.288    5.5288070e-16
 7979.940    5.5033350e-16
 7982.593    5.4709320e-16
 7985.245    5.4357080e-16
 7987.898    5.5176590e-16
 7990.550    5.5095340e-16
 7993.203    5.2637160e-16
 7995.856    5.1980460e-16
 7998.508    5.5758420e-16
 8001.161    5.4899520e-16
 8003.813    5.3920530e-16
 8006.466    5.2746280e-16
 8009.118    5.4849580e-16
 8011.771    5.5489300e-16
 8014.424    5.3366360e-16
 8017.076    5.5211320e-16
 8019.729    5.4387050e-16
 8022.381    5.5129000e-16
 8025.034    5.6027410e-16
 8027.687    5.4531460e-16
 8030.339    5.3723360e-16
 8032.992    5.3049120e-16
 8035.644    5.2699260e-16
 8038.297    5.4425600e-16
 8040.949    5.3232830e-16
 8043.602    5.0965580e-16
 8046.255    5.4129510e-16
 8048.907    5.4002830e-16
 8051.560    5.4067770e-16
 8054.212    5.2127020e-16
 8056.865    5.1356140e-16
 8059.517    5.2998370e-16
 8062.170    5.2366370e-16
 8064.823    5.3774320e-16
 8067.475    5.2212800e-16
 8070.128    5.2092770e-16
 8072.780    5.3352970e-16
 8075.433    5.2742020e-16
 8078.085    5.1517820e-16
 8080.738    5.3836000e-16
 8083.391    5.5293690e-16
 8086.043    5.3594100e-16
 8088.696    5.2612720e-16
 8091.348    5.1253070e-16
 8094.001    5.1215820e-16
 8096.653    5.3429130e-16
 8099.306    5.1314650e-16
 8101.959    4.8798880e-16
 8104.611    5.1037390e-16
 8107.264    5.0612850e-16
 8109.916    4.9503130e-16
 8112.569    4.9071380e-16
 8115.221    5.0490480e-16
 8117.874    5.0465200e-16
 8120.527    5.0907600e-16
 8123.179    5.0137340e-16
 8125.832    5.1195780e-16
 8128.484    5.0062170e-16
 8131.137    4.8418100e-16
 8133.790    4.7397430e-16
 8136.442    4.6914440e-16
 8139.095    4.6496980e-16
 8141.747    4.6575590e-16
 8144.400    4.5967860e-16
 8147.052    4.7181600e-16
 8149.705    4.5854560e-16
 8152.358    4.7718540e-16
 8155.010    4.8458800e-16
 8157.663    4.6524810e-16
 8160.315    4.6240650e-16
 8162.968    4.4714790e-16
 8165.620    4.3847820e-16
 8168.273    4.7525300e-16
 8170.926    4.7756460e-16
 8173.578    4.5739400e-16
 8176.231    4.3849050e-16
 8178.883    4.5129650e-16
 8181.536    4.6476090e-16
 8184.188    4.5997180e-16
 8186.841    4.8373830e-16
 8189.494    4.8584360e-16
 8192.146    4.5254090e-16
 8194.799    4.6378900e-16
 8197.451    4.7791570e-16
 8200.104    4.6886770e-16
 8202.756    4.9676870e-16
 8205.409    5.0983370e-16
 8208.062    4.8692210e-16
 8210.714    4.9743630e-16
 8213.367    4.9947750e-16
 8216.019    5.0386420e-16
 8218.672    4.7729710e-16
 8221.324    4.6128470e-16
 8223.977    4.7982370e-16
 8226.630    4.8750690e-16
 8229.282    4.6658420e-16
 8231.935    4.8084915e-16
 8234.587    4.6736710e-16
 8237.240    4.8613600e-16
 8239.893    4.8187460e-16
 8242.545    4.9007000e-16
 8245.198    4.8941700e-16
 8247.850    4.8584580e-16
 8250.503    4.9255800e-16
 8253.155    4.9944730e-16
 8255.808    4.8365120e-16
 8258.461    4.8099570e-16
 8261.113    4.8320280e-16
 8263.766    4.7566680e-16
 8266.418    4.6375170e-16
 8269.071    4.5263340e-16
 8271.723    4.5554850e-16
 8274.376    4.4928820e-16
 8277.029    4.4873870e-16
 8279.681    4.3640740e-16
 8282.334    4.2894260e-16
 8284.986    4.5691600e-16
 8287.639    4.4729760e-16
 8290.291    4.1613640e-16
 8292.944    4.2125440e-16
 8295.597    4.3006890e-16
 8298.249    4.2121490e-16
 8300.902    4.0871730e-16
 8303.554    4.1439960e-16
 8306.207    4.1526480e-16
 8308.859    3.9838630e-16
 8311.512    3.9784350e-16
 8314.165    3.8864490e-16
 8316.817    3.6145390e-16
 8319.470    3.4888640e-16
 8322.122    3.6319610e-16
 8324.775    3.5219590e-16
 8327.427    3.2720150e-16
 8330.080    3.2704410e-16
 8332.733    3.2839370e-16
 8335.385    3.3516230e-16
 8338.038    3.1704320e-16
 8340.690    3.1895080e-16
 8343.343    3.1551080e-16
 8345.996    2.9070990e-16
 8348.648    2.9824370e-16
 8351.301    2.9522350e-16
 8353.953    2.8449050e-16
 8356.606    2.8642400e-16
 8359.258    2.8842230e-16
 8361.911    2.5764580e-16
 8364.564    2.5042250e-16
 8367.216    2.6000490e-16
 8369.869    2.4009650e-16
 8372.521    2.5431530e-16
 8375.174    2.6327390e-16
 8377.826    2.3747800e-16
 8380.479    2.2637120e-16
 8383.132    2.3589960e-16
 8385.784    2.4309100e-16
 8388.437    2.4343720e-16
 8391.089    2.4300340e-16
 8393.742    2.2827840e-16
 8396.394    2.3071860e-16
 8399.047    2.3801200e-16
 8401.700    2.4527470e-16
 8404.352    2.5101270e-16
 8407.005    2.3472990e-16
 8409.657    2.2565260e-16
 8412.310    2.4268430e-16
 8414.962    2.5450200e-16
 8417.615    2.4390290e-16
 8420.268    2.3856020e-16
 8422.920    2.3807110e-16
 8425.573    2.4820220e-16
 8428.225    2.6690240e-16
 8430.878    2.5949720e-16
 8433.530    2.8007230e-16
 8436.183    2.9775990e-16
 8438.836    2.9401430e-16
 8441.488    2.9083290e-16
 8444.141    3.2104700e-16
 8446.793    3.2977180e-16
 8449.446    3.3849660e-16
 8452.099    3.5301430e-16
 8454.751    3.6033790e-16
 8457.404    3.4193470e-16
 8460.056    3.4449100e-16
 8462.709    3.7444670e-16
 8465.361    4.0310160e-16
 8468.014    3.9170750e-16
 8470.667    4.0213490e-16
 8473.319    4.0116820e-16
 8475.972    4.1541900e-16
 8478.624    4.5412450e-16
 8481.277    4.5832460e-16
 8483.929    4.6519490e-16
 8486.582    4.5974170e-16
 8489.235    4.4879920e-16
 8491.887    4.4932920e-16
 8494.540    4.5754450e-16
 8497.192    4.5990840e-16
 8499.845    4.4842130e-16
 8502.497    4.5571320e-16
 8505.150    4.3981780e-16
 8507.803    4.2333050e-16
 8510.455    4.2742050e-16
 8513.108    4.2168050e-16
 8515.760    4.3136720e-16
 8518.413    4.1798130e-16
 8521.065    3.9569330e-16
 8523.718    4.0686950e-16
 8526.371    3.8893620e-16
 8529.023    3.7612720e-16
 8531.676    3.6747190e-16
 8534.328    3.6696060e-16
 8536.981    3.7586220e-16
 8539.633    3.7381020e-16
 8542.286    3.5067820e-16
 8544.939    3.6889250e-16
 8547.591    3.8799730e-16
 8550.244    3.7709710e-16
 8552.896    3.7116980e-16
 8555.549    3.6668410e-16
 8558.202    3.9513520e-16
 8560.854    4.0228870e-16
 8563.507    4.1608370e-16
 8566.159    4.1883300e-16
 8568.812    4.1466420e-16
 8571.464    4.4004150e-16
 8574.117    4.2169700e-16
 8576.770    4.4076160e-16
 8579.422    4.2916680e-16
 8582.075    4.5045820e-16
 8584.727    4.7746060e-16
 8587.380    4.7458440e-16
 8590.032    4.6268430e-16
 8592.685    4.7348820e-16
 8595.338    5.1139020e-16
 8597.990    4.9611500e-16
 8600.643    5.0502450e-16
 8603.295    5.2467900e-16
 8605.948    5.1448900e-16
 8608.600    5.1599700e-16
 8611.253    5.4608800e-16
 8613.906    5.7474370e-16
 8616.558    5.6991100e-16
 8619.211    5.7626580e-16
 8621.863    5.6091830e-16
 8624.516    5.6294470e-16
 8627.168    5.8923780e-16
 8629.821    6.2416670e-16
 8632.474    6.1178360e-16
 8635.126    6.0143970e-16
 8637.779    6.0755910e-16
 8640.431    6.0996910e-16
 8643.084    6.2735890e-16
 8645.736    6.1517640e-16
 8648.389    6.2403435e-16
 8651.042    6.2070980e-16
 8653.694    6.3370490e-16
 8656.347    6.6212100e-16
 8658.999    6.5562320e-16
 8661.652    6.6562680e-16
 8664.305    6.4159020e-16
 8666.957    6.5239860e-16
 8669.610    6.2711110e-16
 8672.262    6.5426340e-16
 8674.915    6.6412630e-16
 8677.567    6.5405430e-16
 8680.220    6.6819200e-16
 8682.873    6.6298510e-16
 8685.525    6.6782900e-16
 8688.178    6.4916580e-16
 8690.830    6.7160160e-16
 8693.483    6.4863310e-16
 8696.135    6.4587500e-16
 8698.788    6.5655190e-16
 8701.441    6.6839140e-16
 8704.093    6.5458230e-16
 8706.746    6.3140510e-16
 8709.398    6.7157750e-16
 8712.051    6.4989490e-16
 8714.703    6.4563180e-16
 8717.356    6.6449420e-16
 8720.009    6.6086340e-16
 8722.661    6.6511350e-16
 8725.314    6.8245740e-16
 8727.966    6.5326610e-16
 8730.619    6.4223840e-16
 8733.271    6.3410220e-16
 8735.924    6.5176870e-16
 8738.577    6.6520590e-16
 8741.229    6.5324780e-16
 8743.882    6.6221240e-16
 8746.534    6.3980370e-16
 8749.187    6.5472690e-16
 8751.839    6.2810160e-16
 8754.492    6.2736010e-16
 8757.145    5.9852140e-16
 8759.797    6.1639950e-16
 8762.450    6.2661860e-16
 8765.102    6.0877600e-16
 8767.755    5.9514900e-16
 8770.408    6.1643850e-16
 8773.060    6.0928940e-16
 8775.713    5.8608070e-16
 8778.365    5.9189120e-16
 8781.018    6.0201330e-16
 8783.670    5.8875080e-16
 8786.323    5.6849320e-16
 8788.976    5.7012370e-16
 8791.628    5.7441650e-16
 8794.281    5.5666340e-16
 8796.933    5.6190520e-16
 8799.586    5.4509540e-16
 8802.238    5.1618490e-16
 8804.891    5.2839610e-16
 8807.544    5.4096460e-16
 8810.196    5.2579580e-16
 8812.849    5.2550450e-16
 8815.501    5.0615980e-16
 8818.154    4.7333720e-16
 8820.806    4.6091170e-16
 8823.459    4.9768300e-16
 8826.112    5.0943400e-16
 8828.764    4.6804570e-16
 8831.417    4.5391060e-16
 8834.069    4.7022670e-16
 8836.722    4.8021210e-16
 8839.374    4.6683940e-16
 8842.027    4.5729850e-16
 8844.680    4.3735050e-16
 8847.332    4.4775760e-16
 8849.985    4.4187650e-16
 8852.637    4.6629330e-16
 8855.290    4.4987900e-16
 8857.942    4.4447740e-16
 8860.595    4.2645160e-16
 8863.248    4.5073580e-16
 8865.900    4.6781800e-16
 8868.553    4.4242700e-16
 8871.205    4.3871810e-16
 8873.858    4.3433340e-16
 8876.511    4.4557510e-16
 8879.163    4.4869160e-16
 8881.816    4.3995425e-16
 8884.468    4.5515690e-16
 8887.121    4.1687380e-16
 8889.773    4.1831810e-16
 8892.426    4.2466470e-16
 8895.079    4.3611740e-16
 8897.731    4.1448520e-16
 8900.384    4.2308630e-16
 8903.036    4.0898540e-16
 8905.689    4.5192950e-16
 8908.341    4.3869265e-16
 8910.994    4.5651070e-16
 8913.647    4.3048170e-16
 8916.299    4.4690360e-16
 8918.952    4.5627280e-16
 8921.604    4.1899870e-16
 8924.257    4.0239440e-16
 8926.909    4.2561350e-16
 8929.562    4.4176570e-16
 8932.215    3.9538130e-16
 8934.867    4.1552150e-16
 8937.520    4.3179770e-16
 8940.172    3.9381130e-16
 8942.825    3.9754760e-16
 8945.477    3.9810960e-16
 8948.130    3.9406540e-16
 8950.783    3.8487370e-16
 8953.435    4.0451010e-16
 8956.088    4.1558350e-16
 8958.740    3.8246170e-16
 8961.393    3.9826400e-16
 8964.045    3.7185670e-16
 8966.698    3.4919520e-16
 8969.351    3.6125170e-16
 8972.003    3.4335020e-16
 8974.656    3.5656300e-16
 8977.308    3.6172040e-16
 8979.961    3.4426920e-16
 8982.614    3.6749540e-16
 8985.266    3.8761540e-16
 8987.919    3.5801090e-16
 8990.571    3.3251330e-16
 8993.224    3.6804865e-16
 8995.876    3.6363520e-16
 8998.529    3.8606990e-16
 9001.182    3.7246210e-16
 9003.834    3.5702430e-16
 9006.487    3.4625820e-16
 9009.139    3.5320210e-16
 9011.792    3.4721020e-16
 9014.444    3.7240710e-16
 9017.097    3.6073050e-16
 9019.750    3.4291500e-16
 9022.402    3.3710360e-16
 9025.055    3.6299000e-16
 9027.707    3.7894010e-16
 9030.360    3.7484310e-16
 9033.012    3.8541210e-16
 9035.665    3.9789260e-16
 9038.318    3.8150980e-16
 9040.970    3.9687450e-16
 9043.623    4.1533730e-16
 9046.275    3.8263140e-16
 9048.928    4.0720640e-16
 9051.580    4.1281800e-16
 9054.233    3.7810110e-16
 9056.886    4.1398830e-16
 9059.538    4.1690650e-16
 9062.191    3.9178620e-16
 9064.843    3.9688420e-16
 9067.496    3.9008070e-16
 9070.148    3.8407060e-16
 9072.801    3.8975880e-16
 9075.454    3.8671990e-16
 9078.106    3.7622270e-16
 9080.759    3.8298170e-16
 9083.411    3.5405440e-16
 9086.064    3.5737110e-16
 9088.717    3.5027090e-16
 9091.369    3.3278470e-16
 9094.022    3.5698730e-16
 9096.674    3.5638000e-16
 9099.327    3.4025740e-16
 9101.979    3.2980340e-16
 9104.632    3.6166600e-16
 9107.285    3.2485010e-16
 9109.937    3.2732675e-16
 9112.590    3.2454160e-16
 9115.242    3.1301150e-16
 9117.895    3.2423310e-16
 9120.547    3.1019670e-16
 9123.200    3.0364390e-16
 9125.853    3.0884940e-16
 9128.505    2.9554420e-16
 9131.158    2.8826490e-16
 9133.810    2.9190455e-16
 9136.463    2.7081530e-16
 9139.115    2.8472560e-16
 9141.768    3.1273870e-16
 9144.421    3.1595890e-16
 9147.073    3.2352740e-16
 9149.726    3.2956000e-16
 9152.378    2.8993870e-16
 9155.031    3.1663838e-16
 9157.683    3.0974935e-16
 9160.336    2.8939260e-16
 9162.989    3.4144440e-16
 9165.641    3.1137752e-16
 9168.294    3.1300570e-16
 9170.946    3.2331140e-16
 9173.599    3.1760840e-16
 9176.251    3.2901440e-16
 9178.904    3.2954810e-16
 9181.557    3.4169260e-16
 9184.209    3.0293620e-16
 9186.862    3.0212850e-16
 9189.514    3.1738650e-16
 9192.167    3.4627130e-16
 9194.820    3.3790660e-16
 9197.472    3.4880150e-16
 9200.125    3.5976260e-16
 9202.777    3.7526480e-16
 9205.430    3.5675860e-16
 9208.082    3.6879720e-16
 9210.735    3.6965390e-16
 9213.388    3.7051060e-16
 9216.040    3.5212510e-16
 9218.693    3.8048420e-16
 9221.345    3.7482540e-16
 9223.998    3.4593130e-16
 9226.650    3.6150930e-16
 9229.303    3.6201530e-16
 9231.956    3.7033060e-16
 9234.608    3.6617295e-16
 9237.261    3.6825177e-16
 9239.913    3.7418140e-16
 9242.566    3.8538670e-16
 9245.218    3.9659200e-16
 9247.871    4.1604840e-16
 9250.524    4.0110660e-16
 9253.176    4.2688000e-16
 9255.829    3.8837670e-16
 9258.481    4.1100320e-16
 9261.134    4.1967100e-16
 9263.786    3.7531650e-16
 9266.439    4.0297770e-16
 9269.092    3.6950990e-16
 9271.744    3.6802375e-16
 9274.397    3.6653760e-16
 9277.049    3.5090950e-16
 9279.702    3.2996620e-16
 9282.354    3.4452680e-16
 9285.007    3.3709580e-16
 9287.660    3.4830480e-16
 9290.312    3.4304900e-16
 9292.965    3.2804730e-16
 9295.617    3.1696625e-16
 9298.270    3.0309070e-16
 9300.923    3.0073520e-16
 9303.575    3.0588520e-16
 9306.228    2.7583140e-16
 9308.880    2.7739780e-16
 9311.533    2.7661460e-16
 9314.185    2.9647330e-16
 9316.838    2.4311980e-16
 9319.491    2.4927330e-16
 9322.143    2.4255110e-16
 9324.796    2.3758000e-16
 9327.448    2.5610880e-16
 9330.101    2.6443500e-16
 9332.753    2.6848730e-16
 9335.406    2.3365300e-16
 9338.059    2.1074820e-16
 9340.711    2.3491270e-16
 9343.364    2.1097400e-16
 9346.016    2.1911820e-16
 9348.669    2.6996680e-16
 9351.321    2.6544310e-16
 9353.974    2.2936200e-16
 9356.627    2.4783770e-16
 9359.279    2.5520590e-16
 9361.932    2.5719540e-16
 9364.584    2.6304270e-16
 9367.237    2.4658490e-16
 9369.889    2.3363120e-16
 9372.542    2.6627430e-16
 9375.195    2.7638050e-16
 9377.847    2.8011500e-16
 9380.500    2.7701000e-16
 9383.152    2.6427860e-16
 9385.805    3.1691350e-16
 9388.457    2.7763950e-16
 9391.110    2.7645340e-16
 9393.763    3.1926650e-16
 9396.415    3.2759620e-16
 9399.068    3.3455500e-16
 9401.720    3.1133540e-16
 9404.373    2.9211820e-16
 9407.026    2.8020900e-16
 9409.678    3.0340430e-16
 9412.331    2.7060830e-16
 9414.983    2.9824920e-16
 9417.636    3.1291120e-16
 9420.288    2.7795420e-16
 9422.941    2.6238220e-16
 9425.594    3.0088150e-16
 9428.246    2.8562780e-16
 9430.899    2.4451720e-16
 9433.551    2.6507250e-16
 9436.204    2.9330140e-16
 9438.856    2.6070045e-16
 9441.509    2.6465755e-16
 9444.162    2.5715830e-16
 9446.814    2.6424260e-16
 9449.467    2.7570690e-16
 9452.119    2.9141430e-16
 9454.772    2.4992210e-16
 9457.424    2.5756550e-16
 9460.077    2.4931660e-16
 9462.730    2.7594660e-16
 9465.382    2.6039540e-16
 9468.035    2.7052160e-16
 9470.687    2.3352060e-16
 9473.340    2.6322530e-16
 9475.992    2.6040890e-16
 9478.645    2.5989360e-16
 9481.298    2.3012290e-16
 9483.950    2.4837050e-16
 9486.603    2.5820840e-16
 9489.255    2.6662650e-16
 9491.908    2.5206580e-16
 9494.560    2.5506785e-16
 9497.213    2.5686830e-16
 9499.866    2.5326740e-16
 9502.518    2.3198580e-16
 9505.171    2.6591250e-16
 9507.823    2.6308490e-16
 9510.476    2.6167110e-16
 9513.129    2.7495670e-16
 9515.781    2.6025730e-16
 9518.434    2.5730510e-16
 9521.086    2.3673870e-16
 9523.739    2.3833620e-16
 9526.391    2.4782065e-16
 9529.044    2.7101797e-16
 9531.697    2.6137609e-16
 9534.349    2.6619703e-16
 9537.002    2.9421530e-16
 9539.654    2.5173420e-16
 9542.307    2.7292030e-16
 9544.959    2.7737335e-16
 9547.612    2.5175510e-16
 9550.265    3.0038090e-16
 9552.917    2.8182640e-16
 9555.570    3.0315930e-16
 9558.222    2.6606880e-16
 9560.875    2.8106460e-16
 9563.527    3.0273100e-16
 9566.180    2.8164850e-16
 9568.833    2.8853075e-16
 9571.485    2.8223240e-16
 9574.138    2.7623090e-16
 9576.790    2.9482910e-16
 9579.443    2.6145610e-16
 9582.095    2.7022940e-16
 9584.748    2.8252925e-16
 9587.401    2.7637932e-16
 9590.053    3.0142530e-16
 9592.706    2.6921720e-16
 9595.358    2.8524480e-16
 9598.011    3.3162300e-16
